%time,field.header.seq,field.header.stamp,field.header.frame_id,field.orientation.x,field.orientation.y,field.orientation.z,field.orientation.w,field.orientation_covariance0,field.orientation_covariance1,field.orientation_covariance2,field.orientation_covariance3,field.orientation_covariance4,field.orientation_covariance5,field.orientation_covariance6,field.orientation_covariance7,field.orientation_covariance8,field.angular_velocity.x,field.angular_velocity.y,field.angular_velocity.z,field.angular_velocity_covariance0,field.angular_velocity_covariance1,field.angular_velocity_covariance2,field.angular_velocity_covariance3,field.angular_velocity_covariance4,field.angular_velocity_covariance5,field.angular_velocity_covariance6,field.angular_velocity_covariance7,field.angular_velocity_covariance8,field.linear_acceleration.x,field.linear_acceleration.y,field.linear_acceleration.z,field.linear_acceleration_covariance0,field.linear_acceleration_covariance1,field.linear_acceleration_covariance2,field.linear_acceleration_covariance3,field.linear_acceleration_covariance4,field.linear_acceleration_covariance5,field.linear_acceleration_covariance6,field.linear_acceleration_covariance7,field.linear_acceleration_covariance8
1317213368515815019,0,1317213368515815019,imu_link,-0.00740816115266,0.00768570126059,-0.0476237155923,0.998808305361,0.0,0.0,0.0,0.0,0.0,0.0,0.0,0.0,0.0,0.000350697049516,0.000666489771631,-9.53595618085e-05,0.0,0.0,0.0,0.0,0.0,0.0,0.0,0.0,0.0,0.00428465694956,0.0018603640839,9.80753057616,0.0,0.0,0.0,0.0,0.0,0.0,0.0,0.0,0.0
1317213368625854015,0,1317213368625854015,imu_link,-0.00742721762852,0.00767792536407,-0.0476011692629,0.998809298407,0.0,0.0,0.0,0.0,0.0,0.0,0.0,0.0,0.0,-0.000199953509713,0.000250248038037,0.000184470651712,0.0,0.0,0.0,0.0,0.0,0.0,0.0,0.0,0.0,-0.000962396441642,-0.00373602876452,9.81007328175,0.0,0.0,0.0,0.0,0.0,0.0,0.0,0.0,0.0
1317213368725992918,0,1317213368725992918,imu_link,-0.00741065157231,0.00766623675379,-0.0476158716935,0.998808810444,0.0,0.0,0.0,0.0,0.0,0.0,0.0,0.0,0.0,7.90026469758e-05,-0.000170508903558,-0.000277263820284,0.0,0.0,0.0,0.0,0.0,0.0,0.0,0.0,0.0,0.00701662673909,0.00129329186678,9.80761926902,0.0,0.0,0.0,0.0,0.0,0.0,0.0,0.0,0.0
1317213368825829029,0,1317213368825829029,imu_link,-0.00742279476801,0.00768338797254,-0.0476226296994,0.998808266289,0.0,0.0,0.0,0.0,0.0,0.0,0.0,0.0,0.0,-0.0001819266004,0.000107970519278,-0.000655328702743,0.0,0.0,0.0,0.0,0.0,0.0,0.0,0.0,0.0,0.00108760442069,-0.000418105632043,9.81315647346,0.0,0.0,0.0,0.0,0.0,0.0,0.0,0.0,0.0
1317213368935868024,0,1317213368935868024,imu_link,-0.00741183313664,0.007683792514,-0.0476132174224,0.998808793308,0.0,0.0,0.0,0.0,0.0,0.0,0.0,0.0,0.0,0.000358679437996,0.000269487848897,-0.000519116014942,0.0,0.0,0.0,0.0,0.0,0.0,0.0,0.0,0.0,-0.000461166538473,-0.00326507843689,9.81169450183,0.0,0.0,0.0,0.0,0.0,0.0,0.0,0.0,0.0
1317213369035866022,0,1317213369035866022,imu_link,-0.00741163667681,0.00768207655499,-0.0476511883424,0.998806997168,0.0,0.0,0.0,0.0,0.0,0.0,0.0,0.0,0.0,-0.000202498079084,-0.00010454961775,-0.000771540525797,0.0,0.0,0.0,0.0,0.0,0.0,0.0,0.0,0.0,0.000777165874713,-0.002645577603,9.80626366533,0.0,0.0,0.0,0.0,0.0,0.0,0.0,0.0,0.0
1317213369136034011,0,1317213369136034011,imu_link,-0.00743988659484,0.00769316967204,-0.04761692854,0.99880833564,0.0,0.0,0.0,0.0,0.0,0.0,0.0,0.0,0.0,-0.000630039549732,9.32709044183e-05,-0.000380400896707,0.0,0.0,0.0,0.0,0.0,0.0,0.0,0.0,0.0,0.00390867275438,0.00279204232699,9.80491761874,0.0,0.0,0.0,0.0,0.0,0.0,0.0,0.0,0.0
1317213369245871067,0,1317213369245871067,imu_link,-0.0074162360788,0.0077437907197,-0.0475772188085,0.998810012664,0.0,0.0,0.0,0.0,0.0,0.0,0.0,0.0,0.0,0.000165495834672,0.00113443561685,7.78853917078e-05,0.0,0.0,0.0,0.0,0.0,0.0,0.0,0.0,0.0,0.00381477852471,-0.0020878407245,9.80930196167,0.0,0.0,0.0,0.0,0.0,0.0,0.0,0.0,0.0
1317213369345864057,0,1317213369345864057,imu_link,-0.00740715833769,0.00771715927991,-0.0475555370971,0.998811318693,0.0,0.0,0.0,0.0,0.0,0.0,0.0,0.0,0.0,0.000562220564854,-5.45125485627e-05,0.0004571321944,0.0,0.0,0.0,0.0,0.0,0.0,0.0,0.0,0.0,-0.000624720589026,-0.00499473146571,9.80696029627,0.0,0.0,0.0,0.0,0.0,0.0,0.0,0.0,0.0
1317213369455914020,0,1317213369455914020,imu_link,-0.00743111206836,0.00771882229009,-0.0476222682518,0.998807948468,0.0,0.0,0.0,0.0,0.0,0.0,0.0,0.0,0.0,-0.000380147967296,6.47542515282e-05,-0.00137112965066,0.0,0.0,0.0,0.0,0.0,0.0,0.0,0.0,0.0,0.00687506262722,0.00229172997001,9.80820082451,0.0,0.0,0.0,0.0,0.0,0.0,0.0,0.0,0.0
1317213369555952072,0,1317213369555952072,imu_link,-0.0074082613038,0.00772811968347,-0.0476063758196,0.998808803932,0.0,0.0,0.0,0.0,0.0,0.0,0.0,0.0,0.0,0.00031846316213,0.000228815189809,-0.000553083588789,0.0,0.0,0.0,0.0,0.0,0.0,0.0,0.0,0.0,-0.00178129392733,-0.00188548940056,9.80714636926,0.0,0.0,0.0,0.0,0.0,0.0,0.0,0.0,0.0
1317213369656092882,0,1317213369656092882,imu_link,-0.00740473677296,0.00775376592515,-0.04757871706,0.998809949225,0.0,0.0,0.0,0.0,0.0,0.0,0.0,0.0,0.0,0.000421600112326,0.000745002796796,-7.35507951794e-06,0.0,0.0,0.0,0.0,0.0,0.0,0.0,0.0,0.0,0.00387748049977,-0.00117523118634,9.81215308207,0.0,0.0,0.0,0.0,0.0,0.0,0.0,0.0,0.0
1317213369765954017,0,1317213369765954017,imu_link,-0.00742861990816,0.00774495912314,-0.0475871060381,0.998809440561,0.0,0.0,0.0,0.0,0.0,0.0,0.0,0.0,0.0,0.00018066025449,0.000227975851248,-4.35378536799e-05,0.0,0.0,0.0,0.0,0.0,0.0,0.0,0.0,0.0,0.00415963660099,-0.00169916029323,9.8123711893,0.0,0.0,0.0,0.0,0.0,0.0,0.0,0.0,0.0
1317213369865955114,0,1317213369865955114,imu_link,-0.00743341837365,0.00775923012318,-0.0475904453414,0.998809134996,0.0,0.0,0.0,0.0,0.0,0.0,0.0,0.0,0.0,-0.000105702011146,0.000515044886734,-0.000562740798654,0.0,0.0,0.0,0.0,0.0,0.0,0.0,0.0,0.0,0.00670020761003,0.00598915241263,9.80654499125,0.0,0.0,0.0,0.0,0.0,0.0,0.0,0.0,0.0
1317213369965965032,0,1317213369965965032,imu_link,-0.0074321435633,0.00775703850087,-0.047573992896,0.998809945283,0.0,0.0,0.0,0.0,0.0,0.0,0.0,0.0,0.0,0.00025461528277,0.000272802678428,-0.000201357810924,0.0,0.0,0.0,0.0,0.0,0.0,0.0,0.0,0.0,-0.00173821802997,-0.00211624855259,9.81186773292,0.0,0.0,0.0,0.0,0.0,0.0,0.0,0.0,0.0
1317213370076222896,0,1317213370076222896,imu_link,-0.0074507897898,0.00774391157041,-0.0475739674208,0.998809909437,0.0,0.0,0.0,0.0,0.0,0.0,0.0,0.0,0.0,-0.0003876349583,-0.000301252767372,-0.000203341263858,0.0,0.0,0.0,0.0,0.0,0.0,0.0,0.0,0.0,0.00278351536838,-0.00320335775566,9.80906546864,0.0,0.0,0.0,0.0,0.0,0.0,0.0,0.0,0.0
1317213370175998926,0,1317213370175998926,imu_link,-0.00743011913022,0.00776271319286,-0.0476079192976,0.998808299742,0.0,0.0,0.0,0.0,0.0,0.0,0.0,0.0,0.0,0.000145628833347,0.000299103282952,-0.000949399099673,0.0,0.0,0.0,0.0,0.0,0.0,0.0,0.0,0.0,0.00706829010654,0.000769617579719,9.80938780843,0.0,0.0,0.0,0.0,0.0,0.0,0.0,0.0,0.0
1317213370276006937,0,1317213370276006937,imu_link,-0.0074518829946,0.00776155286141,-0.0475827984835,0.998809343682,0.0,0.0,0.0,0.0,0.0,0.0,0.0,0.0,0.0,-0.000504853104744,-1.80858401345e-05,0.000117338181209,0.0,0.0,0.0,0.0,0.0,0.0,0.0,0.0,0.0,0.00586115933639,-0.00153505168321,9.80633337185,0.0,0.0,0.0,0.0,0.0,0.0,0.0,0.0,0.0
1317213370385997056,0,1317213370385997056,imu_link,-0.00744093662843,0.00775333976916,-0.0475594767907,0.99881059984,0.0,0.0,0.0,0.0,0.0,0.0,0.0,0.0,0.0,-0.000211618307436,-0.000382383330727,0.000226635943355,0.0,0.0,0.0,0.0,0.0,0.0,0.0,0.0,0.0,0.00288437213757,-0.00224989993851,9.80898808532,0.0,0.0,0.0,0.0,0.0,0.0,0.0,0.0,0.0
1317213370486027956,0,1317213370486027956,imu_link,-0.00741640486117,0.00778662309723,-0.0475483879557,0.998811051322,0.0,0.0,0.0,0.0,0.0,0.0,0.0,0.0,0.0,0.000289100164067,0.000726782691396,0.000341569438106,0.0,0.0,0.0,0.0,0.0,0.0,0.0,0.0,0.0,-0.00180753076569,-0.00431363040728,9.80625798638,0.0,0.0,0.0,0.0,0.0,0.0,0.0,0.0,0.0
1317213370596137046,0,1317213370596137046,imu_link,-0.00743046950649,0.00778006151946,-0.0475837977276,0.99880931161,0.0,0.0,0.0,0.0,0.0,0.0,0.0,0.0,0.0,-0.000321881450021,0.000451214343828,-0.000927805907586,0.0,0.0,0.0,0.0,0.0,0.0,0.0,0.0,0.0,0.00648382213626,0.00258739863335,9.80525040455,0.0,0.0,0.0,0.0,0.0,0.0,0.0,0.0,0.0
1317213370696022033,0,1317213370696022033,imu_link,-0.00742602089685,0.00778221039706,-0.0476297577596,0.998807137335,0.0,0.0,0.0,0.0,0.0,0.0,0.0,0.0,0.0,-2.55713613159e-05,0.000289566260787,-0.00116475949218,0.0,0.0,0.0,0.0,0.0,0.0,0.0,0.0,0.0,0.000181083587155,-0.00460565684783,9.80977835528,0.0,0.0,0.0,0.0,0.0,0.0,0.0,0.0,0.0
1317213370796037912,0,1317213370796037912,imu_link,-0.00740474441446,0.00775378274492,-0.0476451379942,0.998806782836,0.0,0.0,0.0,0.0,0.0,0.0,0.0,0.0,0.0,0.000595747140716,-0.000356017329151,-0.000950502589284,0.0,0.0,0.0,0.0,0.0,0.0,0.0,0.0,0.0,0.00856602351956,-0.000571596855831,9.81360526992,0.0,0.0,0.0,0.0,0.0,0.0,0.0,0.0,0.0
1317213370906023979,0,1317213370906023979,imu_link,-0.0074454225392,0.00776648102715,-0.0476122691527,0.998807949148,0.0,0.0,0.0,0.0,0.0,0.0,0.0,0.0,0.0,-0.000904957587009,-0.000162597298223,0.000230181418554,0.0,0.0,0.0,0.0,0.0,0.0,0.0,0.0,0.0,0.00184959540993,0.00176956985425,9.8092019628,0.0,0.0,0.0,0.0,0.0,0.0,0.0,0.0,0.0
1317213371006079912,0,1317213371006079912,imu_link,-0.00743791078928,0.00777284078356,-0.0476392383757,0.998806669679,0.0,0.0,0.0,0.0,0.0,0.0,0.0,0.0,0.0,-0.000321709005401,0.000366972737935,0.000163550627372,0.0,0.0,0.0,0.0,0.0,0.0,0.0,0.0,0.0,0.0049727948786,0.000641214736326,9.80800049526,0.0,0.0,0.0,0.0,0.0,0.0,0.0,0.0,0.0
1317213371106235027,0,1317213371106235027,imu_link,-0.00744627737091,0.00777574644264,-0.0476396513249,0.998806565028,0.0,0.0,0.0,0.0,0.0,0.0,0.0,0.0,0.0,-0.000348809497489,0.000251382204549,-0.000227847569977,0.0,0.0,0.0,0.0,0.0,0.0,0.0,0.0,0.0,0.0032359488669,-0.00428160330858,9.81061569988,0.0,0.0,0.0,0.0,0.0,0.0,0.0,0.0,0.0
1317213371216063022,0,1317213371216063022,imu_link,-0.00743991401627,0.00775956234597,-0.0476573152002,0.998805895647,0.0,0.0,0.0,0.0,0.0,0.0,0.0,0.0,0.0,-0.000291449191531,-7.47030354843e-05,-0.000422471198383,0.0,0.0,0.0,0.0,0.0,0.0,0.0,0.0,0.0,0.00397990515594,0.00243200770189,9.80953125177,0.0,0.0,0.0,0.0,0.0,0.0,0.0,0.0,0.0
1317213371316086053,0,1317213371316086053,imu_link,-0.00743407162215,0.00776868847513,-0.0476437966591,0.998806513144,0.0,0.0,0.0,0.0,0.0,0.0,0.0,0.0,0.0,-0.000345614533522,0.000256597073829,0.000284138306867,0.0,0.0,0.0,0.0,0.0,0.0,0.0,0.0,0.0,0.000690130423474,-0.000447650210444,9.80893291789,0.0,0.0,0.0,0.0,0.0,0.0,0.0,0.0,0.0
1317213371416101932,0,1317213371416101932,imu_link,-0.00744283558959,0.00777460028779,-0.0477061074108,0.99880342766,0.0,0.0,0.0,0.0,0.0,0.0,0.0,0.0,0.0,-0.000517100405847,0.000570356006355,-0.000577942725725,0.0,0.0,0.0,0.0,0.0,0.0,0.0,0.0,0.0,0.00319355641078,-0.0026559424251,9.80171145837,0.0,0.0,0.0,0.0,0.0,0.0,0.0,0.0,0.0
1317213371526132106,0,1317213371526132106,imu_link,-0.00742504644415,0.00776591118041,-0.0476638630266,0.998805644493,0.0,0.0,0.0,0.0,0.0,0.0,0.0,0.0,0.0,3.94569132411e-05,0.000270092560205,0.000953544734744,0.0,0.0,0.0,0.0,0.0,0.0,0.0,0.0,0.0,0.0070625803335,-0.0036163551119,9.81351201924,0.0,0.0,0.0,0.0,0.0,0.0,0.0,0.0,0.0
1317213371626125097,0,1317213371626125097,imu_link,-0.00742152205379,0.00778392998691,-0.0476852104173,0.99880451148,0.0,0.0,0.0,0.0,0.0,0.0,0.0,0.0,0.0,-5.19461824195e-05,0.000695716532449,0.000428903074552,0.0,0.0,0.0,0.0,0.0,0.0,0.0,0.0,0.0,0.00260694024004,-8.52054721685e-05,9.80648776845,0.0,0.0,0.0,0.0,0.0,0.0,0.0,0.0,0.0
1317213371736100912,0,1317213371736100912,imu_link,-0.00742722294218,0.007742460832,-0.0477244742226,0.998802916105,0.0,0.0,0.0,0.0,0.0,0.0,0.0,0.0,0.0,-6.31130484489e-05,-0.000303272138391,-0.000390045813281,0.0,0.0,0.0,0.0,0.0,0.0,0.0,0.0,0.0,0.00489612154095,0.00059012254859,9.8071304196,0.0,0.0,0.0,0.0,0.0,0.0,0.0,0.0,0.0
1317213371836251974,0,1317213371836251974,imu_link,-0.0074379727842,0.00777185360533,-0.0477046684422,0.998803553989,0.0,0.0,0.0,0.0,0.0,0.0,0.0,0.0,0.0,-0.000361830057784,0.000564877790412,0.000567547047835,0.0,0.0,0.0,0.0,0.0,0.0,0.0,0.0,0.0,0.000116059643567,-0.00412348754989,9.81191209856,0.0,0.0,0.0,0.0,0.0,0.0,0.0,0.0,0.0
1317213371936152935,0,1317213371936152935,imu_link,-0.00743050324379,0.00776144311871,-0.0476993185685,0.998803946043,0.0,0.0,0.0,0.0,0.0,0.0,0.0,0.0,0.0,5.43454914682e-05,6.40299552777e-05,0.000233036841747,0.0,0.0,0.0,0.0,0.0,0.0,0.0,0.0,0.0,0.00580079741133,0.00262998453431,9.80561814971,0.0,0.0,0.0,0.0,0.0,0.0,0.0,0.0,0.0
1317213372046205043,0,1317213372046205043,imu_link,-0.00744175240694,0.00775120728363,-0.0476658626593,0.998805538953,0.0,0.0,0.0,0.0,0.0,0.0,0.0,0.0,0.0,-9.20619951149e-05,-0.000101699015638,0.00108458670532,0.0,0.0,0.0,0.0,0.0,0.0,0.0,0.0,0.0,0.00183473136904,-0.00216090159666,9.8123347144,0.0,0.0,0.0,0.0,0.0,0.0,0.0,0.0,0.0
1317213372146200895,0,1317213372146200895,imu_link,-0.00743548126521,0.00775642955964,-0.047667862001,0.9988054497,0.0,0.0,0.0,0.0,0.0,0.0,0.0,0.0,0.0,-5.88634711733e-05,0.00034087968169,0.000919818995622,0.0,0.0,0.0,0.0,0.0,0.0,0.0,0.0,0.0,0.00576908856652,-0.000942253658911,9.80682900242,0.0,0.0,0.0,0.0,0.0,0.0,0.0,0.0,0.0
1317213372246145009,0,1317213372246145009,imu_link,-0.00744492309486,0.00775695406074,-0.0477412005765,0.998801872521,0.0,0.0,0.0,0.0,0.0,0.0,0.0,0.0,0.0,-0.000340176827974,-8.81752822201e-05,-0.000824546962089,0.0,0.0,0.0,0.0,0.0,0.0,0.0,0.0,0.0,-0.00361820263391,-0.000304776408784,9.8142651859,0.0,0.0,0.0,0.0,0.0,0.0,0.0,0.0,0.0
1317213372356169939,0,1317213372356169939,imu_link,-0.00741649162965,0.00776416269866,-0.0477488397133,0.998801662862,0.0,0.0,0.0,0.0,0.0,0.0,0.0,0.0,0.0,-4.35511700819e-05,0.000161345263441,-0.0005007795463,0.0,0.0,0.0,0.0,0.0,0.0,0.0,0.0,0.0,0.00380131213664,-0.000904083018481,9.80790632303,0.0,0.0,0.0,0.0,0.0,0.0,0.0,0.0,0.0
1317213372456202030,0,1317213372456202030,imu_link,-0.00741938573423,0.00776009027513,-0.0477223845478,0.998802937384,0.0,0.0,0.0,0.0,0.0,0.0,0.0,0.0,0.0,-0.000181862204033,0.000130785404822,0.000604266957736,0.0,0.0,0.0,0.0,0.0,0.0,0.0,0.0,0.0,0.00573256381652,-0.00355519539834,9.80811184536,0.0,0.0,0.0,0.0,0.0,0.0,0.0,0.0,0.0
1317213372556354045,0,1317213372556354045,imu_link,-0.00740113697621,0.00773606522272,-0.0477062420437,0.998804030296,0.0,0.0,0.0,0.0,0.0,0.0,0.0,0.0,0.0,0.000551992175524,-0.000282126133591,0.000981782799665,0.0,0.0,0.0,0.0,0.0,0.0,0.0,0.0,0.0,0.00567392251705,-0.0019297096091,9.8127327225,0.0,0.0,0.0,0.0,0.0,0.0,0.0,0.0,0.0
1317213372666290044,0,1317213372666290044,imu_link,-0.00740812923598,0.00776125243453,-0.0477479271942,0.998801791163,0.0,0.0,0.0,0.0,0.0,0.0,0.0,0.0,0.0,1.51986679863e-05,0.000470347283536,-0.000584220347323,0.0,0.0,0.0,0.0,0.0,0.0,0.0,0.0,0.0,0.00425483751182,0.00105144466244,9.80609450851,0.0,0.0,0.0,0.0,0.0,0.0,0.0,0.0,0.0
1317213372766249895,0,1317213372766249895,imu_link,-0.00741141987165,0.00775873193259,-0.047725451154,0.998802860552,0.0,0.0,0.0,0.0,0.0,0.0,0.0,0.0,0.0,6.26919985555e-05,0.000429371182886,0.000162114228288,0.0,0.0,0.0,0.0,0.0,0.0,0.0,0.0,0.0,-0.00321050115541,-0.0044856427384,9.80803008751,0.0,0.0,0.0,0.0,0.0,0.0,0.0,0.0,0.0
1317213372876189947,0,1317213372876189947,imu_link,-0.00743495214064,0.00773592012112,-0.0477369581635,0.998802312698,0.0,0.0,0.0,0.0,0.0,0.0,0.0,0.0,0.0,-0.000467145055477,-2.14356078461e-05,-6.27920504931e-05,0.0,0.0,0.0,0.0,0.0,0.0,0.0,0.0,0.0,0.00658681480264,-0.00222686788572,9.80823614644,0.0,0.0,0.0,0.0,0.0,0.0,0.0,0.0,0.0
1317213372976243019,0,1317213372976243019,imu_link,-0.00740243793146,0.00772772307458,-0.0477197870625,0.998803438186,0.0,0.0,0.0,0.0,0.0,0.0,0.0,0.0,0.0,0.000230711437566,0.00012853711428,0.00063396081773,0.0,0.0,0.0,0.0,0.0,0.0,0.0,0.0,0.0,-0.00191997565866,-0.00139018443854,9.81244827801,0.0,0.0,0.0,0.0,0.0,0.0,0.0,0.0,0.0
1317213373076550960,0,1317213373076550960,imu_link,-0.00739596016338,0.00772311060218,-0.0477458426154,0.998802276654,0.0,0.0,0.0,0.0,0.0,0.0,0.0,0.0,0.0,0.000462039842418,0.000270502328557,-0.000614605795852,0.0,0.0,0.0,0.0,0.0,0.0,0.0,0.0,0.0,0.00370667073752,-2.6636865351e-05,9.80942903666,0.0,0.0,0.0,0.0,0.0,0.0,0.0,0.0,0.0
1317213373186296939,0,1317213373186296939,imu_link,-0.00738764557239,0.00771920158545,-0.0477449377768,0.998802411659,0.0,0.0,0.0,0.0,0.0,0.0,0.0,0.0,0.0,0.000364907112887,0.00034384823383,-0.000404815791824,0.0,0.0,0.0,0.0,0.0,0.0,0.0,0.0,0.0,0.00579304446647,-0.00275966455052,9.80967047718,0.0,0.0,0.0,0.0,0.0,0.0,0.0,0.0,0.0
1317213373286268949,0,1317213373286268949,imu_link,-0.00737689703865,0.00769457268022,-0.0477337380541,0.998803216451,0.0,0.0,0.0,0.0,0.0,0.0,0.0,0.0,0.0,0.000448053987354,-0.000325403347466,7.43556040213e-05,0.0,0.0,0.0,0.0,0.0,0.0,0.0,0.0,0.0,0.000636615199258,1.86721216024e-05,9.80923486641,0.0,0.0,0.0,0.0,0.0,0.0,0.0,0.0,0.0
1317213373386317968,0,1317213373386317968,imu_link,-0.00735836251351,0.00770186942005,-0.0477562851301,0.99880221913,0.0,0.0,0.0,0.0,0.0,0.0,0.0,0.0,0.0,0.000675030104932,0.000285582018198,-0.000919978177499,0.0,0.0,0.0,0.0,0.0,0.0,0.0,0.0,0.0,0.0028866155174,-0.00199009847108,9.81530889419,0.0,0.0,0.0,0.0,0.0,0.0,0.0,0.0,0.0
1317213373496278047,0,1317213373496278047,imu_link,-0.00735298906032,0.00770339847337,-0.0477283448982,0.998803582441,0.0,0.0,0.0,0.0,0.0,0.0,0.0,0.0,0.0,0.000411958348362,0.000228391282472,9.9719616671e-05,0.0,0.0,0.0,0.0,0.0,0.0,0.0,0.0,0.0,0.00232652847887,-0.00320636138505,9.80996305022,0.0,0.0,0.0,0.0,0.0,0.0,0.0,0.0,0.0
1317213373596365928,0,1317213373596365928,imu_link,-0.00737096046181,0.00770617041283,-0.0477167038409,0.998803984801,0.0,0.0,0.0,0.0,0.0,0.0,0.0,0.0,0.0,-0.000237635039627,0.0004785044577,-0.000236892594897,0.0,0.0,0.0,0.0,0.0,0.0,0.0,0.0,0.0,0.00768378592979,-0.00295106747231,9.80651747561,0.0,0.0,0.0,0.0,0.0,0.0,0.0,0.0,0.0
1317213373696319103,0,1317213373696319103,imu_link,-0.00735677504621,0.00766699733019,-0.0477231301116,0.998804083825,0.0,0.0,0.0,0.0,0.0,0.0,0.0,0.0,0.0,0.000414064204964,-0.000443250963836,-0.00037928637717,0.0,0.0,0.0,0.0,0.0,0.0,0.0,0.0,0.0,-0.00206509672649,-0.00321567619035,9.80986911118,0.0,0.0,0.0,0.0,0.0,0.0,0.0,0.0,0.0
1317213373806314945,0,1317213373806314945,imu_link,-0.00737053499905,0.00768553501958,-0.0477048951989,0.998804711012,0.0,0.0,0.0,0.0,0.0,0.0,0.0,0.0,0.0,-0.000189727207669,0.000164699772054,0.000186232180105,0.0,0.0,0.0,0.0,0.0,0.0,0.0,0.0,0.0,0.00232274590709,0.00131555509378,9.80680928224,0.0,0.0,0.0,0.0,0.0,0.0,0.0,0.0,0.0
1317213373906307935,0,1317213373906307935,imu_link,-0.00737005392301,0.00768117889702,-0.0476624859163,0.99880677272,0.0,0.0,0.0,0.0,0.0,0.0,0.0,0.0,0.0,-8.34674908212e-05,0.00016847413733,0.000699085743246,0.0,0.0,0.0,0.0,0.0,0.0,0.0,0.0,0.0,0.00114813050524,-0.00710391770279,9.81002713998,0.0,0.0,0.0,0.0,0.0,0.0,0.0,0.0,0.0
1317213374016336917,0,1317213374016336917,imu_link,-0.00738376860815,0.0076888015581,-0.0477217509016,0.998803782924,0.0,0.0,0.0,0.0,0.0,0.0,0.0,0.0,0.0,-0.000636746642708,0.000306313645289,-0.00083445864011,0.0,0.0,0.0,0.0,0.0,0.0,0.0,0.0,0.0,0.00341453489422,-0.000934028551009,9.80772724417,0.0,0.0,0.0,0.0,0.0,0.0,0.0,0.0,0.0
1317213374116525888,0,1317213374116525888,imu_link,-0.00734446859578,0.0076690887259,-0.0476812520008,0.998806158405,0.0,0.0,0.0,0.0,0.0,0.0,0.0,0.0,0.0,0.000387922179493,-8.73729598828e-06,0.000314498980265,0.0,0.0,0.0,0.0,0.0,0.0,0.0,0.0,0.0,-0.00312040759955,-0.00267991927361,9.81091902058,0.0,0.0,0.0,0.0,0.0,0.0,0.0,0.0,0.0
1317213374216381072,0,1317213374216381072,imu_link,-0.00733141257343,0.00767904610153,-0.0476902527976,0.998805748096,0.0,0.0,0.0,0.0,0.0,0.0,0.0,0.0,0.0,0.000555820502747,0.00015082562353,-0.000102297876046,0.0,0.0,0.0,0.0,0.0,0.0,0.0,0.0,0.0,0.00396427633904,-0.000370071995273,9.80877981259,0.0,0.0,0.0,0.0,0.0,0.0,0.0,0.0,0.0
1317213374326384067,0,1317213374326384067,imu_link,-0.00733127846033,0.00766482826009,-0.04766490332,0.998807068335,0.0,0.0,0.0,0.0,0.0,0.0,0.0,0.0,0.0,0.000190098798611,-0.000271136077104,0.000630490795966,0.0,0.0,0.0,0.0,0.0,0.0,0.0,0.0,0.0,0.0033574179064,-0.00534917411921,9.80944411731,0.0,0.0,0.0,0.0,0.0,0.0,0.0,0.0,0.0
1317213374426398038,0,1317213374426398038,imu_link,-0.00730929029072,0.00767048937383,-0.0476914844287,0.998805917174,0.0,0.0,0.0,0.0,0.0,0.0,0.0,0.0,0.0,0.000360287751027,-0.000216328706008,0.000118401839493,0.0,0.0,0.0,0.0,0.0,0.0,0.0,0.0,0.0,0.000975643667665,-0.00362705598543,9.80946446424,0.0,0.0,0.0,0.0,0.0,0.0,0.0,0.0,0.0
1317213374526391029,0,1317213374526391029,imu_link,-0.00730845710343,0.00768605848366,-0.0477033459706,0.998805237142,0.0,0.0,0.0,0.0,0.0,0.0,0.0,0.0,0.0,0.000247978144859,0.00039152192645,-0.000275130742685,0.0,0.0,0.0,0.0,0.0,0.0,0.0,0.0,0.0,-0.000306379414272,-0.000230222362536,9.80924220818,0.0,0.0,0.0,0.0,0.0,0.0,0.0,0.0,0.0
1317213374636455059,0,1317213374636455059,imu_link,-0.00730613265183,0.00765951464918,-0.0477160700512,0.998804850269,0.0,0.0,0.0,0.0,0.0,0.0,0.0,0.0,0.0,5.76506443959e-05,-0.00040077033003,-0.000254096545618,0.0,0.0,0.0,0.0,0.0,0.0,0.0,0.0,0.0,-0.0013917948823,-0.00622046396713,9.80790286926,0.0,0.0,0.0,0.0,0.0,0.0,0.0,0.0,0.0
1317213374736438989,0,1317213374736438989,imu_link,-0.00731758537416,0.00765961886588,-0.0477234770057,0.998804411747,0.0,0.0,0.0,0.0,0.0,0.0,0.0,0.0,0.0,-0.000563788052947,-0.000131663453801,-0.00047288429091,0.0,0.0,0.0,0.0,0.0,0.0,0.0,0.0,0.0,0.00316813473106,-0.00664383915191,9.80814154598,0.0,0.0,0.0,0.0,0.0,0.0,0.0,0.0,0.0
1317213374846426010,0,1317213374846426010,imu_link,-0.00727891423268,0.00765415266376,-0.0477088215354,0.99880543636,0.0,0.0,0.0,0.0,0.0,0.0,0.0,0.0,0.0,0.000424561050254,-0.000130156299328,-0.000297604947549,0.0,0.0,0.0,0.0,0.0,0.0,0.0,0.0,0.0,-0.00350295424963,-0.000322474265145,9.81255923806,0.0,0.0,0.0,0.0,0.0,0.0,0.0,0.0,0.0
1317213374946424007,0,1317213374946424007,imu_link,-0.00729217230614,0.00765355896203,-0.0476792652379,0.998806755546,0.0,0.0,0.0,0.0,0.0,0.0,0.0,0.0,0.0,3.09805392732e-05,-6.96660706795e-05,0.000365975980269,0.0,0.0,0.0,0.0,0.0,0.0,0.0,0.0,0.0,0.000852811794595,-0.00134267259323,9.80894350386,0.0,0.0,0.0,0.0,0.0,0.0,0.0,0.0,0.0
1317213375046406030,0,1317213375046406030,imu_link,-0.00730291023281,0.007645242002,-0.04770272881,0.998805620449,0.0,0.0,0.0,0.0,0.0,0.0,0.0,0.0,0.0,-0.000131803186502,-0.000108486678419,-0.000230777674267,0.0,0.0,0.0,0.0,0.0,0.0,0.0,0.0,0.0,-0.00159507039439,-0.00962759786343,9.80773980276,0.0,0.0,0.0,0.0,0.0,0.0,0.0,0.0,0.0
1317213375156503915,0,1317213375156503915,imu_link,-0.0072815190955,0.0076427072686,-0.0477014069293,0.998805859155,0.0,0.0,0.0,0.0,0.0,0.0,0.0,0.0,0.0,0.000372428401241,-0.00015498247383,-0.000195261676219,0.0,0.0,0.0,0.0,0.0,0.0,0.0,0.0,0.0,0.00358067435537,-0.00275964276052,9.80979083086,0.0,0.0,0.0,0.0,0.0,0.0,0.0,0.0,0.0
1317213375256442070,0,1317213375256442070,imu_link,-0.007291214436,0.00763724418685,-0.0477118697011,0.998805330474,0.0,0.0,0.0,0.0,0.0,0.0,0.0,0.0,0.0,5.47077683033e-05,-0.000282022502506,-0.00101912783893,0.0,0.0,0.0,0.0,0.0,0.0,0.0,0.0,0.0,0.00119396783223,-0.00185676294426,9.8152999907,0.0,0.0,0.0,0.0,0.0,0.0,0.0,0.0,0.0
1317213375356450080,0,1317213375356450080,imu_link,-0.00728985411686,0.00766237091837,-0.0477331443168,0.998804131465,0.0,0.0,0.0,0.0,0.0,0.0,0.0,0.0,0.0,9.69156469741e-05,0.000462923366629,-0.000818901040232,0.0,0.0,0.0,0.0,0.0,0.0,0.0,0.0,0.0,0.00209447694967,-0.000536022803568,9.80640888351,0.0,0.0,0.0,0.0,0.0,0.0,0.0,0.0,0.0
1317213375466459035,0,1317213375466459035,imu_link,-0.00730807573393,0.00765487238666,-0.0476861304177,0.998806301504,0.0,0.0,0.0,0.0,0.0,0.0,0.0,0.0,0.0,-0.000280817062692,0.000160665921374,0.000163917172586,0.0,0.0,0.0,0.0,0.0,0.0,0.0,0.0,0.0,0.0018709044117,-0.00588379985679,9.80757220534,0.0,0.0,0.0,0.0,0.0,0.0,0.0,0.0,0.0
1317213375566623926,0,1317213375566623926,imu_link,-0.0072940920115,0.00766040158245,-0.0476457339428,0.998808289166,0.0,0.0,0.0,0.0,0.0,0.0,0.0,0.0,0.0,0.00017003633723,0.000243023381187,0.000642753628994,0.0,0.0,0.0,0.0,0.0,0.0,0.0,0.0,0.0,0.0012483763595,-0.00358877063559,9.80741827366,0.0,0.0,0.0,0.0,0.0,0.0,0.0,0.0,0.0
1317213375666567087,0,1317213375666567087,imu_link,-0.00731280217633,0.00764245014605,-0.0476687207865,0.998807193075,0.0,0.0,0.0,0.0,0.0,0.0,0.0,0.0,0.0,-0.00032194248916,-0.000421698758805,-0.000565389275086,0.0,0.0,0.0,0.0,0.0,0.0,0.0,0.0,0.0,0.00248119260321,-0.00373292667539,9.81129724627,0.0,0.0,0.0,0.0,0.0,0.0,0.0,0.0,0.0
1317213375776482105,0,1317213375776482105,imu_link,-0.00730271276272,0.0076582986096,-0.0476441906136,0.998808315919,0.0,0.0,0.0,0.0,0.0,0.0,0.0,0.0,0.0,0.000257570991357,0.000204157762937,0.000220607810834,0.0,0.0,0.0,0.0,0.0,0.0,0.0,0.0,0.0,-0.000737832455449,-0.00562822404825,9.81430667204,0.0,0.0,0.0,0.0,0.0,0.0,0.0,0.0,0.0
1317213375876502037,0,1317213375876502037,imu_link,-0.00732735912454,0.00765357932064,-0.0476585338263,0.998807487299,0.0,0.0,0.0,0.0,0.0,0.0,0.0,0.0,0.0,-0.000307418924575,2.58348053118e-05,-0.000112473893033,0.0,0.0,0.0,0.0,0.0,0.0,0.0,0.0,0.0,0.001308063909,-0.00198212776612,9.80530894075,0.0,0.0,0.0,0.0,0.0,0.0,0.0,0.0,0.0
1317213375986509084,0,1317213375986509084,imu_link,-0.0073279349403,0.00765162386549,-0.0476610430661,0.998807378325,0.0,0.0,0.0,0.0,0.0,0.0,0.0,0.0,0.0,-3.34683789921e-05,-8.9810475322e-05,-0.000165821084864,0.0,0.0,0.0,0.0,0.0,0.0,0.0,0.0,0.0,-0.0020048467535,-0.00711523630824,9.81185589762,0.0,0.0,0.0,0.0,0.0,0.0,0.0,0.0,0.0
1317213376086699962,0,1317213376086699962,imu_link,-0.00732435313172,0.0076658609711,-0.0476469664044,0.998807967038,0.0,0.0,0.0,0.0,0.0,0.0,0.0,0.0,0.0,-5.85315501348e-05,0.000473565735651,0.000278724995066,0.0,0.0,0.0,0.0,0.0,0.0,0.0,0.0,0.0,0.00454325595103,-0.00141095494141,9.81068552374,0.0,0.0,0.0,0.0,0.0,0.0,0.0,0.0,0.0
1317213376186547040,0,1317213376186547040,imu_link,-0.00731353630494,0.00764894614557,-0.0476626682398,0.998807426818,0.0,0.0,0.0,0.0,0.0,0.0,0.0,0.0,0.0,0.000204039631353,-2.86344127585e-05,-0.000375952299778,0.0,0.0,0.0,0.0,0.0,0.0,0.0,0.0,0.0,-0.00288302788906,-0.00543195852564,9.80849699424,0.0,0.0,0.0,0.0,0.0,0.0,0.0,0.0,0.0
1317213376296547889,0,1317213376296547889,imu_link,-0.00733925670127,0.00765232976276,-0.0476824294151,0.998806269046,0.0,0.0,0.0,0.0,0.0,0.0,0.0,0.0,0.0,-0.00041854105202,0.000223275182302,-0.000348158613369,0.0,0.0,0.0,0.0,0.0,0.0,0.0,0.0,0.0,0.00291372174155,-0.00353987443497,9.80699523943,0.0,0.0,0.0,0.0,0.0,0.0,0.0,0.0,0.0
1317213376396541118,0,1317213376396541118,imu_link,-0.00733476446755,0.00764350985822,-0.0476700508515,0.998806960448,0.0,0.0,0.0,0.0,0.0,0.0,0.0,0.0,0.0,-0.000234290526991,-0.000131214293459,0.000179927375415,0.0,0.0,0.0,0.0,0.0,0.0,0.0,0.0,0.0,-0.000348810874336,-0.00531430409795,9.80957287189,0.0,0.0,0.0,0.0,0.0,0.0,0.0,0.0,0.0
1317213376496577978,0,1317213376496577978,imu_link,-0.00731703882474,0.0076438646785,-0.047696145561,0.99880584198,0.0,0.0,0.0,0.0,0.0,0.0,0.0,0.0,0.0,0.00040788555212,2.9765132185e-05,-0.000430242800894,0.0,0.0,0.0,0.0,0.0,0.0,0.0,0.0,0.0,0.00418833294758,-0.00196473603408,9.80861547804,0.0,0.0,0.0,0.0,0.0,0.0,0.0,0.0,0.0
1317213376606734037,0,1317213376606734037,imu_link,-0.00733483115369,0.00764251960632,-0.0477359802317,0.998803818744,0.0,0.0,0.0,0.0,0.0,0.0,0.0,0.0,0.0,-0.000166361154987,-0.000185007173274,-0.00121907445542,0.0,0.0,0.0,0.0,0.0,0.0,0.0,0.0,0.0,0.00160639053445,-0.00370283020601,9.81211248349,0.0,0.0,0.0,0.0,0.0,0.0,0.0,0.0,0.0
1317213376706615924,0,1317213376706615924,imu_link,-0.00734072055645,0.00765434016266,-0.0476744114107,0.998806625626,0.0,0.0,0.0,0.0,0.0,0.0,0.0,0.0,0.0,-0.000109435874919,0.00040503567521,0.000550444159027,0.0,0.0,0.0,0.0,0.0,0.0,0.0,0.0,0.0,0.00338414077415,-0.000914135626084,9.80670474061,0.0,0.0,0.0,0.0,0.0,0.0,0.0,0.0,0.0
1317213376806582927,0,1317213376806582927,imu_link,-0.00732708908851,0.00764189959188,-0.0477035802191,0.998805428284,0.0,0.0,0.0,0.0,0.0,0.0,0.0,0.0,0.0,0.000442623702913,-0.000141889188383,-0.000390870162536,0.0,0.0,0.0,0.0,0.0,0.0,0.0,0.0,0.0,0.000722316976535,-0.00294070099996,9.81244836247,0.0,0.0,0.0,0.0,0.0,0.0,0.0,0.0,0.0
1317213376916596889,0,1317213376916596889,imu_link,-0.00735466421218,0.00764263113667,-0.0476923872135,0.998805754542,0.0,0.0,0.0,0.0,0.0,0.0,0.0,0.0,0.0,-0.000249825002407,-0.000285262360597,0.000395228060796,0.0,0.0,0.0,0.0,0.0,0.0,0.0,0.0,0.0,-0.00317714904674,-0.00453327095999,9.8085579062,0.0,0.0,0.0,0.0,0.0,0.0,0.0,0.0,0.0
1317213377016591072,0,1317213377016591072,imu_link,-0.00735519069037,0.00764980282622,-0.0477103017063,0.998804840195,0.0,0.0,0.0,0.0,0.0,0.0,0.0,0.0,0.0,-8.0576372963e-05,8.88722375391e-05,-0.000201898684254,0.0,0.0,0.0,0.0,0.0,0.0,0.0,0.0,0.0,0.0046870865844,-0.00347276473772,9.81116269411,0.0,0.0,0.0,0.0,0.0,0.0,0.0,0.0,0.0
1317213377126703023,0,1317213377126703023,imu_link,-0.00734501178389,0.00763468524373,-0.047695520355,0.998805736728,0.0,0.0,0.0,0.0,0.0,0.0,0.0,0.0,0.0,0.000239587034205,-0.000405122654145,0.00041105085359,0.0,0.0,0.0,0.0,0.0,0.0,0.0,0.0,0.0,-0.00132799923924,-0.00454805246784,9.80971641689,0.0,0.0,0.0,0.0,0.0,0.0,0.0,0.0,0.0
1317213377226772069,0,1317213377226772069,imu_link,-0.00737017571799,0.00766007146448,-0.0477155999137,0.998804397938,0.0,0.0,0.0,0.0,0.0,0.0,0.0,0.0,0.0,-0.000399832237316,0.000355104237828,-2.60226336489e-05,0.0,0.0,0.0,0.0,0.0,0.0,0.0,0.0,0.0,0.001004466802,-0.000211153337644,9.8079350218,0.0,0.0,0.0,0.0,0.0,0.0,0.0,0.0,0.0
1317213377326675891,0,1317213377326675891,imu_link,-0.00735939878608,0.00766890081599,-0.0476941294912,0.998805435118,0.0,0.0,0.0,0.0,0.0,0.0,0.0,0.0,0.0,0.000131208650584,0.000479163494175,0.000470689403379,0.0,0.0,0.0,0.0,0.0,0.0,0.0,0.0,0.0,-0.00181332295558,-0.00698042380738,9.80611124704,0.0,0.0,0.0,0.0,0.0,0.0,0.0,0.0,0.0
1317213377436671972,0,1317213377436671972,imu_link,-0.00736930528687,0.00766085305589,-0.0476926269934,0.99880549558,0.0,0.0,0.0,0.0,0.0,0.0,0.0,0.0,0.0,-9.45794317939e-05,0.000270057704718,0.000594343991566,0.0,0.0,0.0,0.0,0.0,0.0,0.0,0.0,0.0,0.00418857314621,-0.00184394142402,9.80480246284,0.0,0.0,0.0,0.0,0.0,0.0,0.0,0.0,0.0
1317213377536629915,0,1317213377536629915,imu_link,-0.0073693778259,0.00765697208167,-0.0477081407389,0.998804783907,0.0,0.0,0.0,0.0,0.0,0.0,0.0,0.0,0.0,-0.000140269001222,-6.79410701115e-05,0.000345868165379,0.0,0.0,0.0,0.0,0.0,0.0,0.0,0.0,0.0,-0.00160785398268,-0.00479870414499,9.81489117498,0.0,0.0,0.0,0.0,0.0,0.0,0.0,0.0,0.0
1317213377636710882,0,1317213377636710882,imu_link,-0.00736217937445,0.00766782178542,-0.0477315737447,0.9988036342,0.0,0.0,0.0,0.0,0.0,0.0,0.0,0.0,0.0,6.48687056126e-05,0.000248821771925,-0.000608123592953,0.0,0.0,0.0,0.0,0.0,0.0,0.0,0.0,0.0,0.00283095443576,0.00142237345954,9.80744950492,0.0,0.0,0.0,0.0,0.0,0.0,0.0,0.0,0.0
1317213377746685028,0,1317213377746685028,imu_link,-0.00735539698563,0.00763671366837,-0.0476994233348,0.998805458412,0.0,0.0,0.0,0.0,0.0,0.0,0.0,0.0,0.0,0.000317174334925,-0.00049349755361,0.00112121182666,0.0,0.0,0.0,0.0,0.0,0.0,0.0,0.0,0.0,0.000709671828016,-0.00167921984701,9.80984831151,0.0,0.0,0.0,0.0,0.0,0.0,0.0,0.0,0.0
1317213377846681118,0,1317213377846681118,imu_link,-0.00737314833297,0.00764591830516,-0.0477441636832,0.998803119464,0.0,0.0,0.0,0.0,0.0,0.0,0.0,0.0,0.0,-0.000303491277425,2.36155846684e-06,0.00025924015119,0.0,0.0,0.0,0.0,0.0,0.0,0.0,0.0,0.0,0.00251729330392,-0.00243124270851,9.80987781451,0.0,0.0,0.0,0.0,0.0,0.0,0.0,0.0,0.0
1317213377946703910,0,1317213377946703910,imu_link,-0.00735582945704,0.00763060944021,-0.0477489126603,0.998803137216,0.0,0.0,0.0,0.0,0.0,0.0,0.0,0.0,0.0,0.000442354965451,-0.000437508453361,-5.14193171982e-06,0.0,0.0,0.0,0.0,0.0,0.0,0.0,0.0,0.0,-0.000509953088525,-0.000959250299767,9.81246346589,0.0,0.0,0.0,0.0,0.0,0.0,0.0,0.0,0.0
1317213378056900978,0,1317213378056900978,imu_link,-0.00737361036292,0.00764740719266,-0.0477396531406,0.998803320255,0.0,0.0,0.0,0.0,0.0,0.0,0.0,0.0,0.0,-0.000199287058064,0.000259126048901,0.000161776052407,0.0,0.0,0.0,0.0,0.0,0.0,0.0,0.0,0.0,0.000854626775467,-0.00465111746234,9.8101072596,0.0,0.0,0.0,0.0,0.0,0.0,0.0,0.0,0.0
1317213378156997919,0,1317213378156997919,imu_link,-0.00735750202927,0.0076582269797,-0.0477496670689,0.998802877458,0.0,0.0,0.0,0.0,0.0,0.0,0.0,0.0,0.0,0.000118904235229,0.000531670083545,2.03127285151e-06,0.0,0.0,0.0,0.0,0.0,0.0,0.0,0.0,0.0,0.00343808297474,-0.00345159315951,9.80390750939,0.0,0.0,0.0,0.0,0.0,0.0,0.0,0.0,0.0
1317213378266760110,0,1317213378266760110,imu_link,-0.00737046736343,0.00762305524784,-0.047781831042,0.998801512745,0.0,0.0,0.0,0.0,0.0,0.0,0.0,0.0,0.0,6.30398814946e-05,-0.000222467296455,-0.00067054694219,0.0,0.0,0.0,0.0,0.0,0.0,0.0,0.0,0.0,-0.00276530534173,-0.00156592240319,9.81183745319,0.0,0.0,0.0,0.0,0.0,0.0,0.0,0.0,0.0
1317213378366760015,0,1317213378366760015,imu_link,-0.00737827947947,0.00761929299731,-0.0477648265263,0.99880229711,0.0,0.0,0.0,0.0,0.0,0.0,0.0,0.0,0.0,-0.000168811639282,4.02700883027e-05,0.000452473207183,0.0,0.0,0.0,0.0,0.0,0.0,0.0,0.0,0.0,0.00265714902621,-0.0028403423341,9.80894323436,0.0,0.0,0.0,0.0,0.0,0.0,0.0,0.0,0.0
1317213378466754913,0,1317213378466754913,imu_link,-0.00736370010248,0.00759958285991,-0.0477660964961,0.998802494133,0.0,0.0,0.0,0.0,0.0,0.0,0.0,0.0,0.0,8.61218897194e-05,-0.000468609647014,0.000463846686542,0.0,0.0,0.0,0.0,0.0,0.0,0.0,0.0,0.0,-0.00423528838089,-0.00443732907194,9.80864499609,0.0,0.0,0.0,0.0,0.0,0.0,0.0,0.0,0.0
1317213378576980113,0,1317213378576980113,imu_link,-0.00737827239924,0.00761739501081,-0.047778326498,0.998801665951,0.0,0.0,0.0,0.0,0.0,0.0,0.0,0.0,0.0,-0.00052977314798,-0.000104432926491,0.000307389198748,0.0,0.0,0.0,0.0,0.0,0.0,0.0,0.0,0.0,0.000952791651764,-0.00258078526907,9.80339224627,0.0,0.0,0.0,0.0,0.0,0.0,0.0,0.0,0.0
1317213378676815032,0,1317213378676815032,imu_link,-0.00736998711873,0.0076000923318,-0.0477930147464,0.998801156201,0.0,0.0,0.0,0.0,0.0,0.0,0.0,0.0,0.0,-0.000442408023722,-0.000461695220162,0.000164229818596,0.0,0.0,0.0,0.0,0.0,0.0,0.0,0.0,0.0,-0.00122221600201,-0.0042675787029,9.81031440645,0.0,0.0,0.0,0.0,0.0,0.0,0.0,0.0,0.0
1317213378776792049,0,1317213378776792049,imu_link,-0.00734792084311,0.00760868560548,-0.0478110801578,0.998800388755,0.0,0.0,0.0,0.0,0.0,0.0,0.0,0.0,0.0,0.000266139748226,-0.000353746063795,-0.000628979052299,0.0,0.0,0.0,0.0,0.0,0.0,0.0,0.0,0.0,0.00201459650658,0.00160379220597,9.80944822968,0.0,0.0,0.0,0.0,0.0,0.0,0.0,0.0,0.0
1317213378886872053,0,1317213378886872053,imu_link,-0.00736125741166,0.0076032518087,-0.0478025397645,0.99880074071,0.0,0.0,0.0,0.0,0.0,0.0,0.0,0.0,0.0,0.00016150886547,-0.000143789697875,-0.000281176693454,0.0,0.0,0.0,0.0,0.0,0.0,0.0,0.0,0.0,0.000982905175377,-0.00446901321271,9.80969697197,0.0,0.0,0.0,0.0,0.0,0.0,0.0,0.0,0.0
1317213378986820936,0,1317213378986820936,imu_link,-0.0073493141901,0.00758879607817,-0.0478197269938,0.998800115872,0.0,0.0,0.0,0.0,0.0,0.0,0.0,0.0,0.0,0.00013573176026,-0.000244454014028,-0.000419656841863,0.0,0.0,0.0,0.0,0.0,0.0,0.0,0.0,0.0,0.00145104541125,-0.00168011018404,9.80761525317,0.0,0.0,0.0,0.0,0.0,0.0,0.0,0.0,0.0
1317213379087039947,0,1317213379087039947,imu_link,-0.00735160154097,0.0076029594213,-0.0478245855995,0.998799758698,0.0,0.0,0.0,0.0,0.0,0.0,0.0,0.0,0.0,-2.98035066062e-05,0.000144661095867,-0.000474126042737,0.0,0.0,0.0,0.0,0.0,0.0,0.0,0.0,0.0,0.00283105951156,-0.000851415335742,9.81196904116,0.0,0.0,0.0,0.0,0.0,0.0,0.0,0.0,0.0
1317213379196835041,0,1317213379196835041,imu_link,-0.00735246818204,0.0075849774444,-0.0478242310047,0.998799906016,0.0,0.0,0.0,0.0,0.0,0.0,0.0,0.0,0.0,2.6425332297e-06,-0.000209721835669,0.000175643782426,0.0,0.0,0.0,0.0,0.0,0.0,0.0,0.0,0.0,-0.00284946173672,-0.00521147034651,9.81000755087,0.0,0.0,0.0,0.0,0.0,0.0,0.0,0.0,0.0
1317213379296838045,0,1317213379296838045,imu_link,-0.00735413451416,0.00761834405842,-0.0478563998173,0.998798098985,0.0,0.0,0.0,0.0,0.0,0.0,0.0,0.0,0.0,-0.000267113584518,0.000747082501124,-0.00049047058194,0.0,0.0,0.0,0.0,0.0,0.0,0.0,0.0,0.0,0.0013830735939,-0.00264724421949,9.806700338,0.0,0.0,0.0,0.0,0.0,0.0,0.0,0.0,0.0
1317213379406856060,0,1317213379406856060,imu_link,-0.00732415111414,0.00759496030074,-0.0478668003436,0.998797999003,0.0,0.0,0.0,0.0,0.0,0.0,0.0,0.0,0.0,0.000596201516238,-2.41803442217e-05,-0.000439713720114,0.0,0.0,0.0,0.0,0.0,0.0,0.0,0.0,0.0,-0.00211465464626,-0.00405227320968,9.81186394332,0.0,0.0,0.0,0.0,0.0,0.0,0.0,0.0,0.0
1317213379506841897,0,1317213379506841897,imu_link,-0.00734415235416,0.00760211425748,-0.0478910669392,0.998796634452,0.0,0.0,0.0,0.0,0.0,0.0,0.0,0.0,0.0,5.47151287679e-05,0.000165892308189,-0.000940876516591,0.0,0.0,0.0,0.0,0.0,0.0,0.0,0.0,0.0,0.00271868658796,-0.00180192527321,9.80946611095,0.0,0.0,0.0,0.0,0.0,0.0,0.0,0.0,0.0
1317213379607053995,0,1317213379607053995,imu_link,-0.0073474825269,0.00762294980737,-0.0478459217366,0.998798614792,0.0,0.0,0.0,0.0,0.0,0.0,0.0,0.0,0.0,-3.58895913483e-05,0.000668271776892,0.000446846431155,0.0,0.0,0.0,0.0,0.0,0.0,0.0,0.0,0.0,-0.00497201770554,-0.00702657678891,9.80828555622,0.0,0.0,0.0,0.0,0.0,0.0,0.0,0.0,0.0
1317213379716895103,0,1317213379716895103,imu_link,-0.00733592135117,0.00761482235036,-0.0478375836506,0.998799161158,0.0,0.0,0.0,0.0,0.0,0.0,0.0,0.0,0.0,0.000231909541422,0.00032240331921,0.000472463730125,0.0,0.0,0.0,0.0,0.0,0.0,0.0,0.0,0.0,0.0025553274523,-0.00269971901133,9.80826016625,0.0,0.0,0.0,0.0,0.0,0.0,0.0,0.0,0.0
1317213379816869974,0,1317213379816869974,imu_link,-0.0073339529572,0.00760323862866,-0.0478406914082,0.998799115009,0.0,0.0,0.0,0.0,0.0,0.0,0.0,0.0,0.0,0.000506503786753,-3.03399732431e-05,0.000498591987554,0.0,0.0,0.0,0.0,0.0,0.0,0.0,0.0,0.0,-0.00087621978265,-0.00501113063812,9.81288223596,0.0,0.0,0.0,0.0,0.0,0.0,0.0,0.0,0.0
1317213379916903018,0,1317213379916903018,imu_link,-0.00735027839205,0.00758459188464,-0.0478527159741,0.998798560746,0.0,0.0,0.0,0.0,0.0,0.0,0.0,0.0,0.0,0.00024695068722,-0.000344247131907,-0.000523468460728,0.0,0.0,0.0,0.0,0.0,0.0,0.0,0.0,0.0,0.0021958226667,-0.00190539153467,9.80716665847,0.0,0.0,0.0,0.0,0.0,0.0,0.0,0.0,0.0
1317213380026887893,0,1317213380026887893,imu_link,-0.00736195619385,0.00760501866641,-0.0478324840781,0.998799288525,0.0,0.0,0.0,0.0,0.0,0.0,0.0,0.0,0.0,0.000138419563722,0.000129619527469,0.00012193384386,0.0,0.0,0.0,0.0,0.0,0.0,0.0,0.0,0.0,0.000359338727949,-0.0013959607935,9.80854890374,0.0,0.0,0.0,0.0,0.0,0.0,0.0,0.0,0.0
1317213380127094030,0,1317213380127094030,imu_link,-0.00735256772249,0.00758154783676,-0.0478332483568,0.998799499515,0.0,0.0,0.0,0.0,0.0,0.0,0.0,0.0,0.0,0.000477722765758,-0.000563241546307,0.000197821722215,0.0,0.0,0.0,0.0,0.0,0.0,0.0,0.0,0.0,0.000711618143515,-0.00386215197577,9.80987057461,0.0,0.0,0.0,0.0,0.0,0.0,0.0,0.0,0.0
1317213380227076053,0,1317213380227076053,imu_link,-0.00737137905099,0.00761318697456,-0.0478593150909,0.998797871501,0.0,0.0,0.0,0.0,0.0,0.0,0.0,0.0,0.0,0.00018469181059,0.000200129077143,-0.000519787497796,0.0,0.0,0.0,0.0,0.0,0.0,0.0,0.0,0.0,0.00577674941268,-0.00377624858317,9.81191137626,0.0,0.0,0.0,0.0,0.0,0.0,0.0,0.0,0.0
1317213380336929082,0,1317213380336929082,imu_link,-0.00738103256608,0.00760824423333,-0.0478722715475,0.998797216954,0.0,0.0,0.0,0.0,0.0,0.0,0.0,0.0,0.0,0.000354120947043,0.000289268973155,-0.000331604400307,0.0,0.0,0.0,0.0,0.0,0.0,0.0,0.0,0.0,-0.00427919920378,-0.00356398092034,9.80933300068,0.0,0.0,0.0,0.0,0.0,0.0,0.0,0.0,0.0
1317213380436954021,0,1317213380436954021,imu_link,-0.00738504150292,0.00762416708508,-0.0478351524974,0.998798844324,0.0,0.0,0.0,0.0,0.0,0.0,0.0,0.0,0.0,-0.000239093261285,0.000478497832575,0.000289906450877,0.0,0.0,0.0,0.0,0.0,0.0,0.0,0.0,0.0,-4.91860509186e-06,0.000444427993492,9.80571791134,0.0,0.0,0.0,0.0,0.0,0.0,0.0,0.0,0.0
1317213380546955108,0,1317213380546955108,imu_link,-0.00738963981047,0.00761904416336,-0.0478561374209,0.998797844161,0.0,0.0,0.0,0.0,0.0,0.0,0.0,0.0,0.0,-0.000166892181179,0.000198615445435,-0.000527937551322,0.0,0.0,0.0,0.0,0.0,0.0,0.0,0.0,0.0,-0.00103925041801,-0.00112050872738,9.81405712255,0.0,0.0,0.0,0.0,0.0,0.0,0.0,0.0,0.0
1317213380646981000,0,1317213380646981000,imu_link,-0.00740892732365,0.00761727122701,-0.0478310429523,0.998798916852,0.0,0.0,0.0,0.0,0.0,0.0,0.0,0.0,0.0,-0.000716004610827,0.000255415322527,0.000157932506806,0.0,0.0,0.0,0.0,0.0,0.0,0.0,0.0,0.0,0.0038373856535,-0.00261501749723,9.80739551111,0.0,0.0,0.0,0.0,0.0,0.0,0.0,0.0,0.0
1317213380746961116,0,1317213380746961116,imu_link,-0.00738866639112,0.00762278090313,-0.0478276469461,0.998799187529,0.0,0.0,0.0,0.0,0.0,0.0,0.0,0.0,0.0,-0.000128686948556,0.000385766765686,0.000260093986067,0.0,0.0,0.0,0.0,0.0,0.0,0.0,0.0,0.0,-0.00221947228226,-0.00470203442501,9.81005863274,0.0,0.0,0.0,0.0,0.0,0.0,0.0,0.0,0.0
1317213380856986045,0,1317213380856986045,imu_link,-0.00739400545659,0.00760170321516,-0.0478522571032,0.998798129895,0.0,0.0,0.0,0.0,0.0,0.0,0.0,0.0,0.0,-0.000484376187094,-0.000233171603883,-0.000503493201898,0.0,0.0,0.0,0.0,0.0,0.0,0.0,0.0,0.0,-0.00246911798893,0.0020798907591,9.80764940665,0.0,0.0,0.0,0.0,0.0,0.0,0.0,0.0,0.0
1317213380957093954,0,1317213380957093954,imu_link,-0.00736757412872,0.00760087558381,-0.0478444641129,0.998798704843,0.0,0.0,0.0,0.0,0.0,0.0,0.0,0.0,0.0,0.000503346098294,-0.000123106407439,-0.000257574464318,0.0,0.0,0.0,0.0,0.0,0.0,0.0,0.0,0.0,0.0016079345937,-0.00440122972718,9.81305291265,0.0,0.0,0.0,0.0,0.0,0.0,0.0,0.0,0.0
1317213381057166099,0,1317213381057166099,imu_link,-0.00738234874868,0.00759842899366,-0.0478249015396,0.99879955126,0.0,0.0,0.0,0.0,0.0,0.0,0.0,0.0,0.0,0.000370703779578,-2.93295133055e-05,0.000347793400307,0.0,0.0,0.0,0.0,0.0,0.0,0.0,0.0,0.0,0.00246895447132,-0.00363338886242,9.80772069393,0.0,0.0,0.0,0.0,0.0,0.0,0.0,0.0,0.0
1317213381167084932,0,1317213381167084932,imu_link,-0.0073805140801,0.00760106458952,-0.0478533585201,0.99879818177,0.0,0.0,0.0,0.0,0.0,0.0,0.0,0.0,0.0,0.000347415928056,5.51628359679e-05,-7.82932573797e-05,0.0,0.0,0.0,0.0,0.0,0.0,0.0,0.0,0.0,0.00102429474604,-0.00043126858606,9.80883994351,0.0,0.0,0.0,0.0,0.0,0.0,0.0,0.0,0.0
1317213381267035961,0,1317213381267035961,imu_link,-0.00740716088347,0.00759022326648,-0.047839774296,0.998798717697,0.0,0.0,0.0,0.0,0.0,0.0,0.0,0.0,0.0,-0.000590276326934,-0.00027324433195,0.000567673696807,0.0,0.0,0.0,0.0,0.0,0.0,0.0,0.0,0.0,-0.00511399733215,-0.00097318152784,9.8099110828,0.0,0.0,0.0,0.0,0.0,0.0,0.0,0.0,0.0
1317213381367032051,0,1317213381367032051,imu_link,-0.00736801483201,0.00757946601948,-0.0478566267887,0.998798281599,0.0,0.0,0.0,0.0,0.0,0.0,0.0,0.0,0.0,0.000455789014515,-0.000541360448885,0.000249888955147,0.0,0.0,0.0,0.0,0.0,0.0,0.0,0.0,0.0,0.000358138985092,-1.34080519284e-05,9.81296894453,0.0,0.0,0.0,0.0,0.0,0.0,0.0,0.0,0.0
1317213381477052927,0,1317213381477052927,imu_link,-0.0073783519839,0.00761496852996,-0.0478522581016,0.998798144557,0.0,0.0,0.0,0.0,0.0,0.0,0.0,0.0,0.0,-0.000199448266456,0.000461026398834,0.000538925169643,0.0,0.0,0.0,0.0,0.0,0.0,0.0,0.0,0.0,-0.000234765886739,-0.00647622286193,9.80780784319,0.0,0.0,0.0,0.0,0.0,0.0,0.0,0.0,0.0
1317213381577486038,0,1317213381577486038,imu_link,-0.00736788549824,0.00759727273638,-0.0478944324352,0.998796335121,0.0,0.0,0.0,0.0,0.0,0.0,0.0,0.0,0.0,0.000236607064465,4.93694192574e-05,-0.000624981598031,0.0,0.0,0.0,0.0,0.0,0.0,0.0,0.0,0.0,0.00379584934501,-0.00071533254387,9.80816407543,0.0,0.0,0.0,0.0,0.0,0.0,0.0,0.0,0.0
1317213381687067031,0,1317213381687067031,imu_link,-0.00737921835732,0.00758984614353,-0.0478994074239,0.998796069346,0.0,0.0,0.0,0.0,0.0,0.0,0.0,0.0,0.0,-0.000111297882265,-6.44009267475e-05,-0.000835832850902,0.0,0.0,0.0,0.0,0.0,0.0,0.0,0.0,0.0,-0.00471732193683,-0.000119886581093,9.81087894094,0.0,0.0,0.0,0.0,0.0,0.0,0.0,0.0,0.0
1317213381787065029,0,1317213381787065029,imu_link,-0.00737456256749,0.00757877091994,-0.0478555867891,0.99879828838,0.0,0.0,0.0,0.0,0.0,0.0,0.0,0.0,0.0,-0.000161402276041,-0.000337143925707,0.000277144454437,0.0,0.0,0.0,0.0,0.0,0.0,0.0,0.0,0.0,0.000173831340254,-0.00203769970001,9.80794367551,0.0,0.0,0.0,0.0,0.0,0.0,0.0,0.0,0.0
1317213381887124061,0,1317213381887124061,imu_link,-0.00737022134511,0.00760421449586,-0.0478713846639,0.998797369985,0.0,0.0,0.0,0.0,0.0,0.0,0.0,0.0,0.0,0.000199040999271,0.000296143815193,-0.000113299339133,0.0,0.0,0.0,0.0,0.0,0.0,0.0,0.0,0.0,0.00049849203339,-0.00260792861559,9.80842606188,0.0,0.0,0.0,0.0,0.0,0.0,0.0,0.0,0.0
1317213381997085094,0,1317213381997085094,imu_link,-0.00737939442535,0.00759205532966,-0.0478604341602,0.998797919539,0.0,0.0,0.0,0.0,0.0,0.0,0.0,0.0,0.0,-4.80291271761e-05,-7.60798029166e-05,0.000260070829403,0.0,0.0,0.0,0.0,0.0,0.0,0.0,0.0,0.0,-0.00178803702045,-0.0059213294055,9.80802373632,0.0,0.0,0.0,0.0,0.0,0.0,0.0,0.0,0.0
1317213382097259044,0,1317213382097259044,imu_link,-0.00737778810154,0.00760307165421,-0.0478708403401,0.99879734891,0.0,0.0,0.0,0.0,0.0,0.0,0.0,0.0,0.0,0.000179393491481,-0.000152563292328,-8.22071493649e-05,0.0,0.0,0.0,0.0,0.0,0.0,0.0,0.0,0.0,0.0017471989185,-0.00332756639767,9.81455415853,0.0,0.0,0.0,0.0,0.0,0.0,0.0,0.0,0.0
1317213382197134971,0,1317213382197134971,imu_link,-0.00736961489393,0.00763343368418,-0.047899109443,0.998795822369,0.0,0.0,0.0,0.0,0.0,0.0,0.0,0.0,0.0,0.00025930452785,0.000718259264849,-0.000376914833533,0.0,0.0,0.0,0.0,0.0,0.0,0.0,0.0,0.0,-0.00202982758258,-0.00195886707754,9.80266083146,0.0,0.0,0.0,0.0,0.0,0.0,0.0,0.0,0.0
1317213382307137966,0,1317213382307137966,imu_link,-0.00738657901313,0.00758648993019,-0.0478729144595,0.99879731061,0.0,0.0,0.0,0.0,0.0,0.0,0.0,0.0,0.0,-0.00037893282491,-0.000430147535118,0.000465362516569,0.0,0.0,0.0,0.0,0.0,0.0,0.0,0.0,0.0,0.00248384109779,0.00072210930106,9.80926470219,0.0,0.0,0.0,0.0,0.0,0.0,0.0,0.0,0.0
1317213382407136917,0,1317213382407136917,imu_link,-0.00739067932851,0.00761476744104,-0.0478791385267,0.99879676675,0.0,0.0,0.0,0.0,0.0,0.0,0.0,0.0,0.0,-0.000173879565692,0.000431845588952,0.00044328470652,0.0,0.0,0.0,0.0,0.0,0.0,0.0,0.0,0.0,-0.00182851599929,-0.00629490140455,9.80919716711,0.0,0.0,0.0,0.0,0.0,0.0,0.0,0.0,0.0
1317213382517117977,0,1317213382517117977,imu_link,-0.00736169222422,0.00761149546672,-0.0478948567963,0.998796252154,0.0,0.0,0.0,0.0,0.0,0.0,0.0,0.0,0.0,0.000423662447967,0.000168538116229,-9.76082363877e-05,0.0,0.0,0.0,0.0,0.0,0.0,0.0,0.0,0.0,-0.000131421922704,-0.00114953088371,9.80643170194,0.0,0.0,0.0,0.0,0.0,0.0,0.0,0.0,0.0
1317213382617208003,0,1317213382617208003,imu_link,-0.0073823891267,0.00758696394014,-0.0478954136955,0.998796259332,0.0,0.0,0.0,0.0,0.0,0.0,0.0,0.0,0.0,-0.000132908918883,-0.000593173844274,0.000189435146803,0.0,0.0,0.0,0.0,0.0,0.0,0.0,0.0,0.0,0.000123243013751,0.000833503148337,9.81111495443,0.0,0.0,0.0,0.0,0.0,0.0,0.0,0.0,0.0
1317213382717154979,0,1317213382717154979,imu_link,-0.0073926071686,0.00758626668268,-0.0478713747863,0.998797341503,0.0,0.0,0.0,0.0,0.0,0.0,0.0,0.0,0.0,-0.000212974425786,-0.000621354468966,0.000202974817386,0.0,0.0,0.0,0.0,0.0,0.0,0.0,0.0,0.0,0.000518390304545,0.000725537777095,9.8051656521,0.0,0.0,0.0,0.0,0.0,0.0,0.0,0.0,0.0
1317213382827183961,0,1317213382827183961,imu_link,-0.00739917523087,0.00761897720264,-0.0478530726915,0.998797920916,0.0,0.0,0.0,0.0,0.0,0.0,0.0,0.0,0.0,6.14416315674e-05,0.000416841987793,-5.42460570849e-06,0.0,0.0,0.0,0.0,0.0,0.0,0.0,0.0,0.0,0.00280617299203,-0.00242755813612,9.81304391721,0.0,0.0,0.0,0.0,0.0,0.0,0.0,0.0,0.0
1317213382927153110,0,1317213382927153110,imu_link,-0.00740091622909,0.00763506641309,-0.04785142589,0.998797864055,0.0,0.0,0.0,0.0,0.0,0.0,0.0,0.0,0.0,0.000235460878245,0.00064432396422,0.000229184795429,0.0,0.0,0.0,0.0,0.0,0.0,0.0,0.0,0.0,0.00155585838764,-0.0018687579193,9.80746857079,0.0,0.0,0.0,0.0,0.0,0.0,0.0,0.0,0.0
1317213383027199983,0,1317213383027199983,imu_link,-0.00738313619622,0.00761874417302,-0.0478576851405,0.998797820387,0.0,0.0,0.0,0.0,0.0,0.0,0.0,0.0,0.0,0.000701079978155,-0.000194261066354,0.000153899713461,0.0,0.0,0.0,0.0,0.0,0.0,0.0,0.0,0.0,0.00214929486632,-0.000386340839602,9.81022342904,0.0,0.0,0.0,0.0,0.0,0.0,0.0,0.0,0.0
1317213383137444019,0,1317213383137444019,imu_link,-0.00741416608404,0.0076278130624,-0.0478668728745,0.998797081038,0.0,0.0,0.0,0.0,0.0,0.0,0.0,0.0,0.0,-0.000106075217438,3.76630643028e-05,-0.000529921433871,0.0,0.0,0.0,0.0,0.0,0.0,0.0,0.0,0.0,-0.00430126366916,-0.00569669497184,9.8128051942,0.0,0.0,0.0,0.0,0.0,0.0,0.0,0.0,0.0
1317213383237248897,0,1317213383237248897,imu_link,-0.00742386139259,0.00763809776395,-0.0478422448483,0.998798110407,0.0,0.0,0.0,0.0,0.0,0.0,0.0,0.0,0.0,4.01389662474e-05,0.000472072456518,8.29910831573e-06,0.0,0.0,0.0,0.0,0.0,0.0,0.0,0.0,0.0,0.00416235553957,-0.00219394661476,9.80710057728,0.0,0.0,0.0,0.0,0.0,0.0,0.0,0.0,0.0
1317213383337265968,0,1317213383337265968,imu_link,-0.0073975441543,0.00765484126001,-0.0478402962858,0.998798270822,0.0,0.0,0.0,0.0,0.0,0.0,0.0,0.0,0.0,0.000407562732978,0.000771223186409,9.05285459129e-05,0.0,0.0,0.0,0.0,0.0,0.0,0.0,0.0,0.0,-0.000101638281053,-0.00433733820923,9.80920709669,0.0,0.0,0.0,0.0,0.0,0.0,0.0,0.0,0.0
1317213383447273015,0,1317213383447273015,imu_link,-0.00741889188893,0.00763351674592,-0.0477988715515,0.998800258983,0.0,0.0,0.0,0.0,0.0,0.0,0.0,0.0,0.0,-6.44722436554e-06,-0.000137024434171,0.000531616741835,0.0,0.0,0.0,0.0,0.0,0.0,0.0,0.0,0.0,0.0019007558253,-4.68175326251e-05,9.80626719995,0.0,0.0,0.0,0.0,0.0,0.0,0.0,0.0,0.0
1317213383547241926,0,1317213383547241926,imu_link,-0.00742626708286,0.00764687604192,-0.0477977060825,0.998800157758,0.0,0.0,0.0,0.0,0.0,0.0,0.0,0.0,0.0,0.00015522219571,0.000402156120354,1.91492739054e-05,0.0,0.0,0.0,0.0,0.0,0.0,0.0,0.0,0.0,-0.00356298426523,-0.00341610584341,9.81222592748,0.0,0.0,0.0,0.0,0.0,0.0,0.0,0.0,0.0
1317213383657298088,0,1317213383657298088,imu_link,-0.00741879254386,0.00765653311469,-0.0477981778438,0.998800116746,0.0,0.0,0.0,0.0,0.0,0.0,0.0,0.0,0.0,0.00036277893615,0.000338199513303,-8.8209072025e-05,0.0,0.0,0.0,0.0,0.0,0.0,0.0,0.0,0.0,0.00419880460622,-0.00246519294648,9.80552888876,0.0,0.0,0.0,0.0,0.0,0.0,0.0,0.0,0.0
1317213383757262945,0,1317213383757262945,imu_link,-0.00744825321253,0.00766175585543,-0.0477734487586,0.998801040556,0.0,0.0,0.0,0.0,0.0,0.0,0.0,0.0,0.0,-0.000192758450092,0.000198380926038,0.000631357210321,0.0,0.0,0.0,0.0,0.0,0.0,0.0,0.0,0.0,-0.000571944716675,0.00117375008911,9.81165611519,0.0,0.0,0.0,0.0,0.0,0.0,0.0,0.0,0.0
1317213383857239961,0,1317213383857239961,imu_link,-0.0074637576518,0.00766437824656,-0.0477578322521,0.998801651524,0.0,0.0,0.0,0.0,0.0,0.0,0.0,0.0,0.0,-0.000479763085351,8.43186732011e-06,0.000964692581094,0.0,0.0,0.0,0.0,0.0,0.0,0.0,0.0,0.0,0.00392676970481,-0.00238663469393,9.80733078226,0.0,0.0,0.0,0.0,0.0,0.0,0.0,0.0,0.0
1317213383967283010,0,1317213383967283010,imu_link,-0.00745165480347,0.00765245905343,-0.0477799953953,0.998800773303,0.0,0.0,0.0,0.0,0.0,0.0,0.0,0.0,0.0,7.4992609973e-05,-0.000337079658816,-0.00010699044831,0.0,0.0,0.0,0.0,0.0,0.0,0.0,0.0,0.0,0.00278713110252,-0.000893267154929,9.81125125533,0.0,0.0,0.0,0.0,0.0,0.0,0.0,0.0,0.0
1317213384067533016,0,1317213384067533016,imu_link,-0.00743557790351,0.00767039072259,-0.0477390085881,0.998802715428,0.0,0.0,0.0,0.0,0.0,0.0,0.0,0.0,0.0,0.000557431118222,0.000476737788567,0.0009307173632,0.0,0.0,0.0,0.0,0.0,0.0,0.0,0.0,0.0,0.00219062090975,0.00096625989432,9.8068829012,0.0,0.0,0.0,0.0,0.0,0.0,0.0,0.0,0.0
1317213384167356014,0,1317213384167356014,imu_link,-0.00745718812181,0.0076340472069,-0.0477601357613,0.998801822736,0.0,0.0,0.0,0.0,0.0,0.0,0.0,0.0,0.0,2.27179332517e-05,-0.000742812082583,-1.79129769468e-05,0.0,0.0,0.0,0.0,0.0,0.0,0.0,0.0,0.0,-0.00250701460499,-0.00128935239443,9.80929878494,0.0,0.0,0.0,0.0,0.0,0.0,0.0,0.0,0.0
1317213384277297019,0,1317213384277297019,imu_link,-0.00747276705357,0.00766621658826,-0.0477457653922,0.998802146955,0.0,0.0,0.0,0.0,0.0,0.0,0.0,0.0,0.0,-0.000356517455148,0.000163049928763,0.000905054731802,0.0,0.0,0.0,0.0,0.0,0.0,0.0,0.0,0.0,-0.00115343863409,-0.00544527537378,9.80845177749,0.0,0.0,0.0,0.0,0.0,0.0,0.0,0.0,0.0
1317213384377283096,0,1317213384377283096,imu_link,-0.00748179564614,0.00767902045854,-0.0477276118608,0.998802848637,0.0,0.0,0.0,0.0,0.0,0.0,0.0,0.0,0.0,-0.000265900514118,0.00045805829773,0.000951851119227,0.0,0.0,0.0,0.0,0.0,0.0,0.0,0.0,0.0,0.00340627606498,-0.00146114477822,9.80892205921,0.0,0.0,0.0,0.0,0.0,0.0,0.0,0.0,0.0
1317213384477319955,0,1317213384477319955,imu_link,-0.007467038349,0.00769053198607,-0.0477535902167,0.998801628792,0.0,0.0,0.0,0.0,0.0,0.0,0.0,0.0,0.0,0.000242305392994,0.0006582850472,-0.000349790664487,0.0,0.0,0.0,0.0,0.0,0.0,0.0,0.0,0.0,-0.000723719248686,0.00395358661688,9.80483889472,0.0,0.0,0.0,0.0,0.0,0.0,0.0,0.0,0.0
1317213384587523937,0,1317213384587523937,imu_link,-0.00748756550815,0.00767282447165,-0.0477321174471,0.998802637707,0.0,0.0,0.0,0.0,0.0,0.0,0.0,0.0,0.0,-0.000359092268254,-0.000141307442037,0.00021640132119,0.0,0.0,0.0,0.0,0.0,0.0,0.0,0.0,0.0,0.00172359332107,-0.00190050260296,9.80812046016,0.0,0.0,0.0,0.0,0.0,0.0,0.0,0.0,0.0
1317213384687352895,0,1317213384687352895,imu_link,-0.00750019878938,0.00769857817608,-0.047683862191,0.998804649668,0.0,0.0,0.0,0.0,0.0,0.0,0.0,0.0,0.0,-0.000454881996996,0.000584305808818,0.0009690880571,0.0,0.0,0.0,0.0,0.0,0.0,0.0,0.0,0.0,0.00218455789235,-0.00413583475815,9.81002737507,0.0,0.0,0.0,0.0,0.0,0.0,0.0,0.0,0.0
1317213384797338962,0,1317213384797338962,imu_link,-0.00748696878182,0.00768194104254,-0.0476855991485,0.998804794098,0.0,0.0,0.0,0.0,0.0,0.0,0.0,0.0,0.0,0.00019997872665,-0.00021045485598,8.53799498761e-05,0.0,0.0,0.0,0.0,0.0,0.0,0.0,0.0,0.0,0.00321815796517,0.00584796137754,9.80878578423,0.0,0.0,0.0,0.0,0.0,0.0,0.0,0.0,0.0
1317213384897372007,0,1317213384897372007,imu_link,-0.00751715367596,0.00770706525539,-0.0477051401089,0.998803440699,0.0,0.0,0.0,0.0,0.0,0.0,0.0,0.0,0.0,-0.000559399099747,0.000218624065602,-0.000455307864734,0.0,0.0,0.0,0.0,0.0,0.0,0.0,0.0,0.0,-0.00379679515818,0.0015276264641,9.8109496663,0.0,0.0,0.0,0.0,0.0,0.0,0.0,0.0,0.0
1317213384997396945,0,1317213384997396945,imu_link,-0.00749798607202,0.00771681947959,-0.0476617483417,0.998805581005,0.0,0.0,0.0,0.0,0.0,0.0,0.0,0.0,0.0,0.000286868150358,0.00061258445678,0.00040393192321,0.0,0.0,0.0,0.0,0.0,0.0,0.0,0.0,0.0,0.00483290822916,0.00103449639542,9.80530553933,0.0,0.0,0.0,0.0,0.0,0.0,0.0,0.0,0.0
1317213385107619047,0,1317213385107619047,imu_link,-0.00750473721523,0.00770017838185,-0.0476688331652,0.998805320629,0.0,0.0,0.0,0.0,0.0,0.0,0.0,0.0,0.0,0.000176279324348,9.03597555704e-05,-0.000376101213094,0.0,0.0,0.0,0.0,0.0,0.0,0.0,0.0,0.0,0.0045543778329,-0.000994533134123,9.81393464015,0.0,0.0,0.0,0.0,0.0,0.0,0.0,0.0,0.0
1317213385207369089,0,1317213385207369089,imu_link,-0.00751551276685,0.00771189374391,-0.0476926255385,0.998804013424,0.0,0.0,0.0,0.0,0.0,0.0,0.0,0.0,0.0,7.40387069419e-05,0.000156462116374,-0.00117297066998,0.0,0.0,0.0,0.0,0.0,0.0,0.0,0.0,0.0,0.00451309785121,0.00424924835617,9.80717362762,0.0,0.0,0.0,0.0,0.0,0.0,0.0,0.0,0.0
1317213385307413101,0,1317213385307413101,imu_link,-0.00752069087487,0.00769426711689,-0.0476477923165,0.998806250155,0.0,0.0,0.0,0.0,0.0,0.0,0.0,0.0,0.0,0.000390420364627,-0.000175619184776,-0.000375876187407,0.0,0.0,0.0,0.0,0.0,0.0,0.0,0.0,0.0,-0.00194132947372,0.00021344514233,9.81237688116,0.0,0.0,0.0,0.0,0.0,0.0,0.0,0.0,0.0
1317213385417423963,0,1317213385417423963,imu_link,-0.00752567562029,0.00769546652817,-0.0476427515881,0.998806443823,0.0,0.0,0.0,0.0,0.0,0.0,0.0,0.0,0.0,0.000288377100638,-0.000412908952242,0.000548119625988,0.0,0.0,0.0,0.0,0.0,0.0,0.0,0.0,0.0,-0.00197703628131,-0.00555041838934,9.80937762357,0.0,0.0,0.0,0.0,0.0,0.0,0.0,0.0,0.0
1317213385517411947,0,1317213385517411947,imu_link,-0.0075430039845,0.00770362497138,-0.0476835063781,0.998804305394,0.0,0.0,0.0,0.0,0.0,0.0,0.0,0.0,0.0,-0.000240336128682,5.55079946099e-05,-0.000211932992312,0.0,0.0,0.0,0.0,0.0,0.0,0.0,0.0,0.0,0.00312378279436,0.00292564167657,9.80790128913,0.0,0.0,0.0,0.0,0.0,0.0,0.0,0.0,0.0
1317213385627463102,0,1317213385627463102,imu_link,-0.00754993987306,0.00769160092979,-0.0477035355006,0.998803389253,0.0,0.0,0.0,0.0,0.0,0.0,0.0,0.0,0.0,-0.000220367618509,-0.000503996464416,-0.000417347801984,0.0,0.0,0.0,0.0,0.0,0.0,0.0,0.0,0.0,-0.00313280333491,-0.00227880176531,9.80969057529,0.0,0.0,0.0,0.0,0.0,0.0,0.0,0.0,0.0
1317213385727515935,0,1317213385727515935,imu_link,-0.0075701496037,0.00771096312177,-0.0476877395022,0.998803841294,0.0,0.0,0.0,0.0,0.0,0.0,0.0,0.0,0.0,-0.000422874952693,0.000335206768945,0.000386023860176,0.0,0.0,0.0,0.0,0.0,0.0,0.0,0.0,0.0,0.0028195809903,0.000356618607882,9.80734888604,0.0,0.0,0.0,0.0,0.0,0.0,0.0,0.0,0.0
1317213385827449083,0,1317213385827449083,imu_link,-0.00755395980334,0.00769751672032,-0.0477309225638,0.998802004883,0.0,0.0,0.0,0.0,0.0,0.0,0.0,0.0,0.0,-0.000116742961096,-0.000307662356766,-0.000757841893208,0.0,0.0,0.0,0.0,0.0,0.0,0.0,0.0,0.0,-0.00218572332965,0.00082646469036,9.8106424473,0.0,0.0,0.0,0.0,0.0,0.0,0.0,0.0,0.0
1317213385937457084,0,1317213385937457084,imu_link,-0.00755171121648,0.00770480650863,-0.0477168928324,0.998802636036,0.0,0.0,0.0,0.0,0.0,0.0,0.0,0.0,0.0,-0.000100262923589,-0.00014861947231,0.000250713356583,0.0,0.0,0.0,0.0,0.0,0.0,0.0,0.0,0.0,0.00396021985155,0.00233119297872,9.80714528512,0.0,0.0,0.0,0.0,0.0,0.0,0.0,0.0,0.0
1317213386037456035,0,1317213386037456035,imu_link,-0.00754260113179,0.00771405165514,-0.0477383542457,0.998801607983,0.0,0.0,0.0,0.0,0.0,0.0,0.0,0.0,0.0,0.000337731303806,0.000272546881634,-0.00036383553937,0.0,0.0,0.0,0.0,0.0,0.0,0.0,0.0,0.0,0.00337396930184,0.000800168074977,9.81024886837,0.0,0.0,0.0,0.0,0.0,0.0,0.0,0.0,0.0
1317213386137629032,0,1317213386137629032,imu_link,-0.00753955470977,0.00771157732188,-0.0477603716165,0.998800597513,0.0,0.0,0.0,0.0,0.0,0.0,0.0,0.0,0.0,0.000158975010673,0.000301494772964,-0.000777025298323,0.0,0.0,0.0,0.0,0.0,0.0,0.0,0.0,0.0,0.00453379062806,0.00163232065198,9.80880656333,0.0,0.0,0.0,0.0,0.0,0.0,0.0,0.0,0.0
1317213386247504949,0,1317213386247504949,imu_link,-0.00755494008963,0.0077104706789,-0.0477173198572,0.998802547508,0.0,0.0,0.0,0.0,0.0,0.0,0.0,0.0,0.0,-0.000337454079493,0.000309028256032,0.000470097970767,0.0,0.0,0.0,0.0,0.0,0.0,0.0,0.0,0.0,-0.000812975474916,0.00324276651711,9.81144418248,0.0,0.0,0.0,0.0,0.0,0.0,0.0,0.0,0.0
1317213386347498893,0,1317213386347498893,imu_link,-0.00752757046867,0.00770382690939,-0.0477390513845,0.998801766972,0.0,0.0,0.0,0.0,0.0,0.0,0.0,0.0,0.0,0.000307686718849,0.00010505130516,-0.000124733825229,0.0,0.0,0.0,0.0,0.0,0.0,0.0,0.0,0.0,0.00083486345799,0.00376282739902,9.8060067109,0.0,0.0,0.0,0.0,0.0,0.0,0.0,0.0,0.0
1317213386447715044,0,1317213386447715044,imu_link,-0.00751903125801,0.00768340497927,-0.0477402877475,0.998801929505,0.0,0.0,0.0,0.0,0.0,0.0,0.0,0.0,0.0,0.000613580649775,-0.000412380505858,0.000121195151348,0.0,0.0,0.0,0.0,0.0,0.0,0.0,0.0,0.0,0.0029728929831,-0.00234370971255,9.81121213152,0.0,0.0,0.0,0.0,0.0,0.0,0.0,0.0,0.0
1317213386557689905,0,1317213386557689905,imu_link,-0.00752901666181,0.00768531281543,-0.04773120935,0.99880227349,0.0,0.0,0.0,0.0,0.0,0.0,0.0,0.0,0.0,0.000193577685114,-0.000432817255715,0.000392512966023,0.0,0.0,0.0,0.0,0.0,0.0,0.0,0.0,0.0,0.00120024109852,-0.00245479497924,9.80915452546,0.0,0.0,0.0,0.0,0.0,0.0,0.0,0.0,0.0
1317213386657610893,0,1317213386657610893,imu_link,-0.007514589967,0.00769221821502,-0.0477422421531,0.998801801676,0.0,0.0,0.0,0.0,0.0,0.0,0.0,0.0,0.0,0.000391726187801,-0.000229792756371,3.86090316859e-05,0.0,0.0,0.0,0.0,0.0,0.0,0.0,0.0,0.0,0.000824800144648,0.000404877329729,9.81283099074,0.0,0.0,0.0,0.0,0.0,0.0,0.0,0.0,0.0
1317213386767580032,0,1317213386767580032,imu_link,-0.00753273865052,0.00767236995958,-0.0477178094616,0.998802985202,0.0,0.0,0.0,0.0,0.0,0.0,0.0,0.0,0.0,-0.000396736213553,-0.000866201378823,0.000515049779211,0.0,0.0,0.0,0.0,0.0,0.0,0.0,0.0,0.0,-0.00357087125066,-0.00214600883713,9.80795454528,0.0,0.0,0.0,0.0,0.0,0.0,0.0,0.0,0.0
1317213386867547035,0,1317213386867547035,imu_link,-0.00751344861234,0.00769227409352,-0.0476928088367,0.998804171494,0.0,0.0,0.0,0.0,0.0,0.0,0.0,0.0,0.0,0.00024741353243,-0.000172863418774,0.000918818884106,0.0,0.0,0.0,0.0,0.0,0.0,0.0,0.0,0.0,0.00488490548938,0.000556790976389,9.80823990341,0.0,0.0,0.0,0.0,0.0,0.0,0.0,0.0,0.0
1317213386967595100,0,1317213386967595100,imu_link,-0.00752837405807,0.00772123817709,-0.0477204179526,0.998802516905,0.0,0.0,0.0,0.0,0.0,0.0,0.0,0.0,0.0,-0.000434302996116,0.000576773087778,-0.00015110372138,0.0,0.0,0.0,0.0,0.0,0.0,0.0,0.0,0.0,0.000581465757555,-0.00236951671164,9.8109273971,0.0,0.0,0.0,0.0,0.0,0.0,0.0,0.0,0.0
1317213387077671051,0,1317213387077671051,imu_link,-0.00750848865863,0.0076858137482,-0.0477288575707,0.998802536551,0.0,0.0,0.0,0.0,0.0,0.0,0.0,0.0,0.0,0.0001799670103,-0.000529258636098,-0.000215870462824,0.0,0.0,0.0,0.0,0.0,0.0,0.0,0.0,0.0,0.00224178793525,0.00449910314657,9.80970732239,0.0,0.0,0.0,0.0,0.0,0.0,0.0,0.0,0.0
1317213387177639007,0,1317213387177639007,imu_link,-0.00751512218064,0.00770652680976,-0.0477126506557,0.998803101392,0.0,0.0,0.0,0.0,0.0,0.0,0.0,0.0,0.0,0.000187403031801,0.000209161571762,-9.17250214816e-05,0.0,0.0,0.0,0.0,0.0,0.0,0.0,0.0,0.0,-0.000357517639411,0.00141434513098,9.81211879875,0.0,0.0,0.0,0.0,0.0,0.0,0.0,0.0,0.0
1317213387277597904,0,1317213387277597904,imu_link,-0.00752357059986,0.00769979655179,-0.0476966657153,0.998803853165,0.0,0.0,0.0,0.0,0.0,0.0,0.0,0.0,0.0,-0.000110608383555,-1.50915904573e-05,0.000154335400974,0.0,0.0,0.0,0.0,0.0,0.0,0.0,0.0,0.0,0.00573391028816,0.00221246080778,9.80755993174,0.0,0.0,0.0,0.0,0.0,0.0,0.0,0.0,0.0
1317213387387597084,0,1317213387387597084,imu_link,-0.00752683218621,0.00769539612504,-0.04769018741,0.998804171848,0.0,0.0,0.0,0.0,0.0,0.0,0.0,0.0,0.0,6.99590203737e-06,0.000139001454723,0.000342726705107,0.0,0.0,0.0,0.0,0.0,0.0,0.0,0.0,0.0,0.00260257560055,0.000421772164473,9.8101923289,0.0,0.0,0.0,0.0,0.0,0.0,0.0,0.0,0.0
1317213387487632036,0,1317213387487632036,imu_link,-0.00755184220091,0.00769797707408,-0.0476754999702,0.998804664352,0.0,0.0,0.0,0.0,0.0,0.0,0.0,0.0,0.0,-0.000828940944327,0.000147519726155,0.000442584066325,0.0,0.0,0.0,0.0,0.0,0.0,0.0,0.0,0.0,0.00440192885271,0.00171626282271,9.81070942643,0.0,0.0,0.0,0.0,0.0,0.0,0.0,0.0,0.0
1317213387587733983,0,1317213387587733983,imu_link,-0.00753911055278,0.00768850440812,-0.0476307276448,0.998806969587,0.0,0.0,0.0,0.0,0.0,0.0,0.0,0.0,0.0,-0.000138651422253,0.000175197163137,0.000946133320136,0.0,0.0,0.0,0.0,0.0,0.0,0.0,0.0,0.0,-0.0012319561296,0.00127004404328,9.80638257311,0.0,0.0,0.0,0.0,0.0,0.0,0.0,0.0,0.0
1317213387697654962,0,1317213387697654962,imu_link,-0.00755388772549,0.00768081477341,-0.0476451689905,0.998806228323,0.0,0.0,0.0,0.0,0.0,0.0,0.0,0.0,0.0,-0.000400003827124,-4.67590241668e-05,-2.45879584604e-05,0.0,0.0,0.0,0.0,0.0,0.0,0.0,0.0,0.0,-0.00305747239286,-0.000984772268432,9.80660779519,0.0,0.0,0.0,0.0,0.0,0.0,0.0,0.0,0.0
